text,congruent,corrAns,letterColor,trials_2.thisRepN,trials_2.thisTrialN,trials_2.thisN,trials_2.thisIndex,trials.thisRepN,trials.thisTrialN,trials.thisN,trials.thisIndex,resp.keys,resp.corr,resp.rt,key_resp_2.keys,date,frameRate,expName,session,participant,
rood,0,lshift,green,0,0,0,1,,,,,lshift,1,1.77177095413,None,2014_Aug_26_1719,59.8705610638,stroop.psyexp 4 kleuren,01,4,
rood,1,tab,red,0,1,1,0,,,,,tab,1,1.22098898888,None,2014_Aug_26_1719,59.8705610638,stroop.psyexp 4 kleuren,01,4,
geel,0,space,blue,0,2,2,4,,,,,space,1,1.93851280212,None,2014_Aug_26_1719,59.8705610638,stroop.psyexp 4 kleuren,01,4,
blauw,1,space,blue,0,3,3,2,,,,,space,1,1.3045809269,None,2014_Aug_26_1719,59.8705610638,stroop.psyexp 4 kleuren,01,4,
geel,0,lshift,green,0,4,4,3,,,,,lshift,1,1.53786993027,None,2014_Aug_26_1719,59.8705610638,stroop.psyexp 4 kleuren,01,4,
groen,0,space,blue,,,,,0,0,0,6,space,1,1.53818798065,None,2014_Aug_26_1719,59.8705610638,stroop.psyexp 4 kleuren,01,4,
rood,0,space,blue,,,,,0,1,1,2,space,1,1.45483994484,None,2014_Aug_26_1719,59.8705610638,stroop.psyexp 4 kleuren,01,4,
blauw,1,space,blue,,,,,0,2,2,10,space,1,1.0358979702,None,2014_Aug_26_1719,59.8705610638,stroop.psyexp 4 kleuren,01,4,
rood,0,enter,yellow,,,,,0,3,3,3,return,0,1.47172403336,None,2014_Aug_26_1719,59.8705610638,stroop.psyexp 4 kleuren,01,4,
blauw,0,lshift,green,,,,,0,4,4,9,lshift,1,1.17011499405,None,2014_Aug_26_1719,59.8705610638,stroop.psyexp 4 kleuren,01,4,
groen,0,enter,yellow,,,,,0,5,5,7,return,0,1.37144899368,None,2014_Aug_26_1719,59.8705610638,stroop.psyexp 4 kleuren,01,4,
geel,0,space,blue,,,,,0,6,6,14,space,1,1.43786907196,None,2014_Aug_26_1719,59.8705610638,stroop.psyexp 4 kleuren,01,4,
blauw,0,enter,yellow,,,,,0,7,7,11,return,0,1.05251479149,None,2014_Aug_26_1719,59.8705610638,stroop.psyexp 4 kleuren,01,4,
rood,0,lshift,green,,,,,0,8,8,1,lshift,1,1.36997199059,None,2014_Aug_26_1719,59.8705610638,stroop.psyexp 4 kleuren,01,4,
geel,0,lshift,green,,,,,0,9,9,13,lshift,1,1.53760194778,None,2014_Aug_26_1719,59.8705610638,stroop.psyexp 4 kleuren,01,4,
geel,0,tab,red,,,,,0,10,10,12,tab,1,1.30465316772,None,2014_Aug_26_1719,59.8705610638,stroop.psyexp 4 kleuren,01,4,
blauw,0,tab ,red,,,,,0,11,11,8,tab,0,1.30316710472,None,2014_Aug_26_1719,59.8705610638,stroop.psyexp 4 kleuren,01,4,
groen,0,tab,red,,,,,0,12,12,4,tab,1,0.753013134003,None,2014_Aug_26_1719,59.8705610638,stroop.psyexp 4 kleuren,01,4,
groen,1,lshift,green,,,,,0,13,13,5,lshift,1,1.53764891624,None,2014_Aug_26_1719,59.8705610638,stroop.psyexp 4 kleuren,01,4,
geel,1,enter,yellow,,,,,0,14,14,15,return,0,1.77243709564,None,2014_Aug_26_1719,59.8705610638,stroop.psyexp 4 kleuren,01,4,
rood,1,tab,red,,,,,0,15,15,0,tab,1,0.81999206543,None,2014_Aug_26_1719,59.8705610638,stroop.psyexp 4 kleuren,01,4,
groen,0,space,blue,,,,,1,0,16,6,space,1,2.0895011425,None,2014_Aug_26_1719,59.8705610638,stroop.psyexp 4 kleuren,01,4,
rood,0,enter,yellow,,,,,1,1,17,3,return,0,1.48839998245,None,2014_Aug_26_1719,59.8705610638,stroop.psyexp 4 kleuren,01,4,
blauw,0,enter,yellow,,,,,1,2,18,11,return,0,0.73654294014,None,2014_Aug_26_1719,59.8705610638,stroop.psyexp 4 kleuren,01,4,
rood,1,tab,red,,,,,1,3,19,0,tab,1,1.18743515015,None,2014_Aug_26_1719,59.8705610638,stroop.psyexp 4 kleuren,01,4,
blauw,0,tab ,red,,,,,1,4,20,8,tab,0,0.970404863358,None,2014_Aug_26_1719,59.8705610638,stroop.psyexp 4 kleuren,01,4,
geel,1,enter,yellow,,,,,1,5,21,15,return,0,0.836918115616,None,2014_Aug_26_1719,59.8705610638,stroop.psyexp 4 kleuren,01,4,
geel,0,lshift,green,,,,,1,6,22,13,lshift,1,1.13691711426,None,2014_Aug_26_1719,59.8705610638,stroop.psyexp 4 kleuren,01,4,
geel,0,tab,red,,,,,1,7,23,12,tab,1,1.43815398216,None,2014_Aug_26_1719,59.8705610638,stroop.psyexp 4 kleuren,01,4,
blauw,0,lshift,green,,,,,1,8,24,9,lshift,1,2.69053196907,None,2014_Aug_26_1719,59.8705610638,stroop.psyexp 4 kleuren,01,4,
geel,0,space,blue,,,,,1,9,25,14,space,1,1.70514798164,None,2014_Aug_26_1719,59.8705610638,stroop.psyexp 4 kleuren,01,4,
rood,0,lshift,green,,,,,1,10,26,1,lshift,1,1.23711895943,None,2014_Aug_26_1719,59.8705610638,stroop.psyexp 4 kleuren,01,4,
rood,0,space,blue,,,,,1,11,27,2,space,1,1.53834795952,None,2014_Aug_26_1719,59.8705610638,stroop.psyexp 4 kleuren,01,4,
groen,1,lshift,green,,,,,1,12,28,5,lshift,1,1.33731794357,None,2014_Aug_26_1719,59.8705610638,stroop.psyexp 4 kleuren,01,4,
blauw,1,space,blue,,,,,1,13,29,10,space,1,0.887189865112,None,2014_Aug_26_1719,59.8705610638,stroop.psyexp 4 kleuren,01,4,
groen,0,tab,red,,,,,1,14,30,4,tab,1,1.33803391457,None,2014_Aug_26_1719,59.8705610638,stroop.psyexp 4 kleuren,01,4,
groen,0,enter,yellow,,,,,1,15,31,7,return,0,0.953678846359,None,2014_Aug_26_1719,59.8705610638,stroop.psyexp 4 kleuren,01,4,
blauw,0,enter,yellow,,,,,2,0,32,11,return,0,0.602494001389,None,2014_Aug_26_1719,59.8705610638,stroop.psyexp 4 kleuren,01,4,
blauw,1,space,blue,,,,,2,1,33,10,space,1,0.937097072601,None,2014_Aug_26_1719,59.8705610638,stroop.psyexp 4 kleuren,01,4,
rood,0,space,blue,,,,,2,2,34,2,space,1,0.786487102509,None,2014_Aug_26_1719,59.8705610638,stroop.psyexp 4 kleuren,01,4,
geel,1,enter,yellow,,,,,2,3,35,15,return,0,0.770035982132,None,2014_Aug_26_1719,59.8705610638,stroop.psyexp 4 kleuren,01,4,
groen,0,enter,yellow,,,,,2,4,36,7,return,0,0.502517938614,None,2014_Aug_26_1719,59.8705610638,stroop.psyexp 4 kleuren,01,4,
blauw,0,lshift,green,,,,,2,5,37,9,lshift,1,0.986509084702,None,2014_Aug_26_1719,59.8705610638,stroop.psyexp 4 kleuren,01,4,
blauw,0,tab ,red,,,,,2,6,38,8,tab,0,1.053855896,None,2014_Aug_26_1719,59.8705610638,stroop.psyexp 4 kleuren,01,4,
rood,0,enter,yellow,,,,,2,7,39,3,return,0,0.886883020401,None,2014_Aug_26_1719,59.8705610638,stroop.psyexp 4 kleuren,01,4,
groen,1,lshift,green,,,,,2,8,40,5,lshift,1,1.20366096497,None,2014_Aug_26_1719,59.8705610638,stroop.psyexp 4 kleuren,01,4,
geel,0,lshift,green,,,,,2,9,41,13,lshift,1,1.0531039238,None,2014_Aug_26_1719,59.8705610638,stroop.psyexp 4 kleuren,01,4,
rood,1,tab,red,,,,,2,10,42,0,tab,1,0.953644037247,None,2014_Aug_26_1719,59.8705610638,stroop.psyexp 4 kleuren,01,4,
groen,0,tab,red,,,,,2,11,43,4,tab,1,1.63833117485,None,2014_Aug_26_1719,59.8705610638,stroop.psyexp 4 kleuren,01,4,
rood,0,lshift,green,,,,,2,12,44,1,lshift,1,1.070125103,None,2014_Aug_26_1719,59.8705610638,stroop.psyexp 4 kleuren,01,4,
groen,0,space,blue,,,,,2,13,45,6,space,1,1.33780384064,None,2014_Aug_26_1719,59.8705610638,stroop.psyexp 4 kleuren,01,4,
geel,0,space,blue,,,,,2,14,46,14,space,1,0.786325216293,None,2014_Aug_26_1719,59.8705610638,stroop.psyexp 4 kleuren,01,4,
geel,0,tab,red,,,,,2,15,47,12,tab,1,1.00391483307,None,2014_Aug_26_1719,59.8705610638,stroop.psyexp 4 kleuren,01,4,
